File: hyperspectra imaging/process_test/raman fit plot/secondRaman - EL2-98.csv
Index,I,W
356,0,580.881
359,0,581.141
362,0,581.4
365,0,581.659
368,0,581.918
371,0,582.177
374,0,582.437
377,0,582.696
380,0,582.955
383,0,583.214
386,0,583.473
389,0,583.732
392,0,583.992
395,0,584.251
398,0,584.51
401,0,584.769
404,0,585.028
407,0,585.287
410,0,585.546
413,0,585.805
416,0,586.065
419,0,586.324
422,0,586.583
425,0,586.842
428,0,587.101
431,0,587.36
434,0,587.619
437,0,587.878
440,0,588.137
443,0,588.396
446,0,588.655
449,0,588.914
452,0,589.173
455,0,589.432
458,0,589.691
461,0,589.95
464,0,590.209
467,0,590.468
470,0,590.727
473,0,590.986
476,0,591.245
479,0,591.504
482,0,591.763
485,0,592.022
488,0,592.281
491,0,592.54
494,0,592.798
497,0,593.057
500,0,593.316
503,0,593.575
506,0,593.834
509,0,594.093
512,0,594.352
515,0,594.611
518,0,594.869
521,0,595.128
524,0,595.387
527,0,595.646
530,0,595.905
533,0,596.163
536,0,596.422
539,0,596.681
542,0,596.94
545,0,597.199
548,0,597.457
551,0,597.716
554,0,597.975
557,0,598.234
560,0,598.492
563,0,598.751
566,0,599.01
569,0,599.269
572,0,599.527
575,0,599.786
578,88,600.045
581,73,600.303
584,70,600.562
587,70,600.821
590,81,601.079
593,92,601.338
596,103,601.597
599,111,601.855
602,129,602.114
605,122,602.373
608,150,602.631
611,179,602.89
614,220,603.148
617,225,603.407
620,203,603.666
623,204,603.924
626,210,604.183
629,215,604.441
632,226,604.7
635,244,604.958
638,289,605.217
641,290,605.476
644,307,605.734
647,330,605.993
650,354,606.251
653,405,606.51
656,418,606.768
659,409,607.027
662,477,607.285
665,480,607.544
668,499,607.802
671,545,608.06
674,536,608.319
677,560,608.577
680,610,608.836
683,586,609.094
686,592,609.353
689,594,609.611
692,601,609.869
695,641,610.128
698,634,610.386
701,683,610.645
704,693,610.903
707,690,611.161
710,717,611.42
713,756,611.678
716,755,611.936
719,863,612.195
722,896,612.453
725,904,612.711
728,1028,612.97
731,1180,613.228
734,1240,613.486
737,1181,613.745
740,1077,614.003
743,989,614.261
746,990,614.52
749,952,614.778
752,915,615.036
755,793,615.294
758,764,615.553
761,607,615.811
764,570,616.069
767,549,616.327
770,511,616.585
773,482,616.844
776,484,617.102
779,468,617.36
782,414,617.618
785,417,617.876
788,434,618.134
791,382,618.393
794,385,618.651
797,393,618.909
800,385,619.167
803,393,619.425
806,375,619.683
809,371,619.941
812,350,620.199
815,349,620.458
818,397,620.716
821,444,620.974
824,434,621.232
827,213,621.49
830,72,621.748
833,18,622.006
836,0,622.264
839,0,622.522
842,0,622.78
845,0,623.038
848,0,623.296
851,0,623.554
854,0,623.812
857,0,624.07
860,0,624.328
863,0,624.586
866,0,624.844
869,0,625.102
872,0,625.36
875,0,625.618
878,0,625.876
881,0,626.133
884,0,626.391
887,0,626.649
890,0,626.907
893,0,627.165
896,0,627.423
899,0,627.681
902,0,627.939
905,0,628.197
908,0,628.454
911,0,628.712
914,0,628.97
917,0,629.228
920,0,629.486
923,0,629.743
926,0,630.001
929,0,630.259
932,0,630.517
935,0,630.775
938,0,631.032
941,0,631.29
944,0,631.548
947,0,631.806
950,0,632.063
953,0,632.321
956,0,632.579
959,0,632.836
962,0,633.094
965,0,633.352
968,0,633.61
971,0,633.867
974,0,634.125
977,0,634.383
980,0,634.64
983,0,634.898
986,0,635.155
989,0,635.413
992,0,635.671
995,0,635.928
998,0,636.186
1001,0,636.444
1004,0,636.701
1007,0,636.959
1010,0,637.216
1013,0,637.474
1016,0,637.731
1019,0,637.989
1022,0,638.246
1025,0,638.504
1028,0,638.761
1031,0,639.019
1034,0,639.277
1037,0,639.534
1040,0,639.791
1043,0,640.049
1046,0,640.306
1049,0,640.564
1052,0,640.821
1055,0,641.079
1058,0,641.336
1061,0,641.594
1064,0,641.851
1067,0,642.109
1070,0,642.366
1073,0,642.623
1076,0,642.881
1079,0,643.138
1082,0,643.395
1085,0,643.653
1088,0,643.91
1091,0,644.168
1094,0,644.425
1097,0,644.682
1100,0,644.939
1103,0,645.197
1106,0,645.454
1109,0,645.711
1112,0,645.969
1115,0,646.226
1118,0,646.483
1121,0,646.741
1124,0,646.998
1127,0,647.255
1130,0,647.512
1133,0,647.769
1136,0,648.027
1139,0,648.284
1142,0,648.541
1145,0,648.798
1148,0,649.056
1151,0,649.313
1154,0,649.57
1157,0,649.827
1160,0,650.084
1163,0,650.341
1166,0,650.598
1169,0,650.856
1172,0,651.113
1175,0,651.37
1178,0,651.627
1181,0,651.884
1184,0,652.141
1187,0,652.398
1190,0,652.655
1193,0,652.912
1196,0,653.169
1199,0,653.426
1202,0,653.683
1205,0,653.941
1208,0,654.198
1211,0,654.455
1214,0,654.712
1217,0,654.969
1220,0,655.226
1223,0,655.483
1226,0,655.739
1229,0,655.996
1232,0,656.253
1235,0,656.51
1238,0,656.767
1241,0,657.024
1244,0,657.281
1247,0,657.538
1250,0,657.795
1253,0,658.052
1256,0,658.309
1259,0,658.566
1262,0,658.822
1265,0,659.079
1268,0,659.336
1271,0,659.593
1274,0,659.85
1277,0,660.107
1280,0,660.364
1283,0,660.62
1286,0,660.877
1289,0,661.134
1292,0,661.391
1295,0,661.647
1298,0,661.904
1301,0,662.161
1304,0,662.418
1307,0,662.633
1310,0,662.892
1313,0,663.151
1316,0,663.41
1319,0,663.669
1322,0,663.928
1325,0,664.187
1328,0,664.446
1331,0,664.705
1334,0,664.964
1337,0,665.224
1340,0,665.483
1343,0,665.742
1346,0,666.001
1349,0,666.26
1352,0,666.519
1355,0,666.778
1358,0,667.037
1361,0,667.296
1364,0,667.555
1367,0,667.814
1370,0,668.073
1373,0,668.332
1376,0,668.591
1379,0,668.85
1382,0,669.108
1385,0,669.367
1388,0,669.626
1391,0,669.885
1394,0,670.144
1397,0,670.403
1400,0,670.662
1403,0,670.921
1406,0,671.18
1409,0,671.439
1412,0,671.698
1415,0,671.956
1418,0,672.215
1421,0,672.474
1424,0,672.733
1427,0,672.992
1430,0,673.251
1433,0,673.509
1436,0,673.768
1439,0,674.027
1442,0,674.286
1445,0,674.545
1448,0,674.803
1451,0,675.062
1454,0,675.321
1457,0,675.58
1460,0,675.839
1463,0,676.097
1466,0,676.356
1469,0,676.615
1472,0,676.874
1475,0,677.132
1478,0,677.391
1481,0,677.65
1484,0,677.908
1487,0,678.167
1490,0,678.426
1493,0,678.684
1496,0,678.943
1499,0,679.202
1502,0,679.46
1505,0,679.719
1508,0,679.978
1511,0,680.236
1514,0,680.495
1517,0,680.754
1520,0,681.012
1523,0,681.271
1526,0,681.529
1529,0,681.788
1532,0,682.047
1535,0,682.305
1538,0,682.564
1541,0,682.822
1544,0,683.081
1547,0,683.34
1550,0,683.598
1553,0,683.857
1556,0,684.115
1559,0,684.374
1562,0,684.632
1565,0,684.891
1568,0,685.149
1571,0,685.408
1574,0,685.666
1577,0,685.925
1580,0,686.183
1583,0,686.442
1586,0,686.7
1589,0,686.958
1592,0,687.217
1595,0,687.475
1598,0,687.734
1601,0,687.992
1604,0,688.251
1607,0,688.509
1610,0,688.767
1613,0,689.026
1616,0,689.284
1619,0,689.542
1622,0,689.801
1625,0,690.059
1628,0,690.318
1631,0,690.576
1634,0,690.834
1637,0,691.093
1640,0,691.351
1643,0,691.609
1646,0,691.868
1649,0,692.126
1652,0,692.384
1655,0,692.642
1658,0,692.901
1661,0,693.159
1664,0,693.417
1667,0,693.675
1670,0,693.934
1673,0,694.192
1676,0,694.45
1679,0,694.708
1682,0,694.967
1685,0,695.225
1688,0,695.483
1691,0,695.741
1694,0,695.999
1697,0,696.258
1700,0,696.516
1703,0,696.774
1706,0,697.032
1709,0,697.29
1712,0,697.548
1715,0,697.806
1718,0,698.065
1721,0,698.323
1724,0,698.581
1727,0,698.839
1730,0,699.097
1733,0,699.355
1736,0,699.613
1739,0,699.871
1742,0,700.129
1745,0,700.387
1748,0,700.645
1751,0,700.903
1754,0,701.161
1757,0,701.42
1760,0,701.678
1763,0,701.936
1766,0,702.194
1769,0,702.452
1772,0,702.71
1775,0,702.968
1778,0,703.225
1781,0,703.483
1784,0,703.741
1787,0,703.999
1790,0,704.257
1793,0,704.515
1796,0,704.773
1799,0,705.031
1802,0,705.289
1805,0,705.547
1808,0,705.805
1811,0,706.063
1814,0,706.321
1817,0,706.578
1820,0,706.836
1823,0,707.094
1826,0,707.352
1829,0,707.61
1832,0,707.868
1835,0,708.125
1838,0,708.383
1841,0,708.641
1844,0,708.899
1847,0,709.157
1850,0,709.414
1853,0,709.672
1856,0,709.93
1859,0,710.188
1862,0,710.446
1865,0,710.703
1868,0,710.961
1871,0,711.219
1874,0,711.476
1877,0,711.734
1880,0,711.992
1883,0,712.25
1886,0,712.507
1889,0,712.765
1892,0,713.023
1895,0,713.28
1898,0,713.538
1901,0,713.796
1904,0,714.053
1907,0,714.311
1910,0,714.569
1913,0,714.826
1916,0,715.084
1919,0,715.341
1922,0,715.599
1925,0,715.857
1928,0,716.114
1931,0,716.372
1934,0,716.629
1937,0,716.887
1940,0,717.144
1943,0,717.402
1946,0,717.659
1949,0,717.917
1952,0,718.175
1955,0,718.432
1958,0,718.69
1961,0,718.947
1964,0,719.204
1967,0,719.462
1970,0,719.719
1973,0,719.977
1976,0,720.234
1979,0,720.492
1982,0,720.749
1985,0,721.007
1988,0,721.264
1991,0,721.522
1994,0,721.779
1997,0,722.036
2000,0,722.294
2003,0,722.551
2006,0,722.808
2009,0,723.066
2012,0,723.323
2015,0,723.581
2018,0,723.838
2021,0,724.095
2024,0,724.353
2027,0,724.61
2030,0,724.867
2033,0,725.124
2036,0,725.382
2039,0,725.639
2042,0,725.896
2045,0,726.154
2048,0,726.411
2051,0,726.668
2054,0,726.925
2057,0,727.183
2060,0,727.44
2063,0,727.697
2066,0,727.954
2069,0,728.211
2072,0,728.469
2075,0,728.726
2078,0,728.983
2081,0,729.24
2084,0,729.497
2087,0,729.754
2090,0,730.012
2093,0,730.269
2096,0,730.526
2099,0,730.783
2102,0,731.04
2105,0,731.297
2108,0,731.554
2111,0,731.811
2114,0,732.068
2117,0,732.326
2120,0,732.583
2123,0,732.84
2126,0,733.097
2129,0,733.354
2132,0,733.611
2135,0,733.868
2138,0,734.125
2141,0,734.382
2144,0,734.639
2147,0,734.896
2150,0,735.153
2153,0,735.41
2156,0,735.667
2159,0,735.924
2162,0,736.181
2165,0,736.438
2168,0,736.695
2171,0,736.951
2174,0,737.208
2177,0,737.465
2180,0,737.722
2183,0,737.979
2186,0,738.236
2189,0,738.493
2192,0,738.75
2195,0,739.007
2198,0,739.263
2201,0,739.52
2204,0,739.777
2207,0,740.034
2210,0,740.291
2213,0,740.548
2216,0,740.804
2219,0,741.061
2222,0,741.318
2225,0,741.575
2228,0,741.831
2231,0,742.088
2234,0,742.345
2237,0,742.602
2240,0,742.858
2243,0,743.115
2246,0,743.372
2249,0,743.629
2252,0,743.885
2255,0,744.142
2258,0,744.399
2261,0,744.655
2264,0,744.912
2267,0,745.169
2270,0,745.425
2273,0,745.682
2276,0,745.939
2279,0,746.195
2282,0,746.452
2285,0,746.708
2288,0,746.965
2291,0,747.222
2294,0,747.478
2297,0,747.735
2300,0,747.991
2303,0,748.248
2306,0,748.504
2309,0,748.761
2312,0,749.017
2315,0,749.274
2318,0,749.53
2321,0,749.787
2324,0,750.043
2327,0,750.3
2330,0,750.556
2333,0,750.813
2336,0,751.069
2339,0,751.326
2342,0,751.582
2345,0,751.839
2348,0,752.095
2351,0,752.352
2354,0,752.608
2357,0,752.864
2360,0,753.121
2363,0,753.377
2366,0,753.633
2369,0,753.89
2372,0,754.146
2375,0,754.403
2378,0,754.659
2381,0,754.915
2384,0,755.172
2387,0,755.428
2390,0,755.684
2393,0,755.94
2396,0,756.197
2399,0,756.453
2402,0,756.709
2405,0,756.966
2408,0,757.222
2411,0,757.478
2414,0,757.734
2417,0,757.991
2420,0,758.247
2423,0,758.503
2426,0,758.759
2429,0,759.015
2432,0,759.272
2435,0,759.528
2438,0,759.784
2441,0,760.04
2444,0,760.296
2447,0,760.552
2450,0,760.808
2453,0,761.065
2456,0,761.321
2459,0,761.577
2462,0,761.833
2465,0,762.089
2468,0,762.345
2471,0,762.601
2474,0,762.857
2477,0,763.113
2480,0,763.369
2483,0,763.625
2486,0,763.881
2489,0,764.137
2492,0,764.393
2495,0,764.649
2498,0,764.905
2501,0,765.161
2504,0,765.417
2507,0,765.673
2510,0,765.929
2513,0,766.185
2516,0,766.441
2519,0,766.697
2522,0,766.953
2525,0,767.209
2528,0,767.465
2531,0,767.721
2534,0,767.977
2537,0,768.232
2540,0,768.488
2543,0,768.744
2546,0,769
2549,0,769.256
2552,0,769.512
2555,0,769.768
2558,0,770.023
2561,0,770.279
2564,0,770.535
2567,0,770.791
2570,0,771.047
2573,0,771.302
2576,0,771.558
2579,0,771.814
2582,0,772.07
2585,0,772.243
2588,0,772.501
2591,0,772.758
2594,0,773.016
2597,0,773.273
2600,0,773.531
2603,0,773.788
2606,0,774.046
2609,0,774.303
2612,0,774.56
2615,0,774.818
2618,0,775.075
2621,0,775.333
2624,0,775.59
2627,0,775.847
2630,0,776.105
2633,0,776.362
2636,0,776.62
2639,0,776.877
2642,0,777.134
2645,0,777.392
2648,0,777.649
2651,0,777.906
2654,0,778.164
2657,0,778.421
2660,0,778.678
2663,0,778.935
2666,0,779.193
2669,0,779.45
2672,0,779.707
2675,0,779.964
2678,0,780.222
2681,0,780.479
2684,0,780.736
2687,0,780.993
2690,0,781.251
2693,0,781.508
2696,0,781.765
2699,0,782.022
2702,0,782.279
2705,0,782.537
2708,0,782.794
2711,0,783.051
2714,0,783.308
2717,0,783.565
2720,0,783.822
2723,0,784.08
2726,0,784.337
2729,0,784.594
2732,0,784.851
2735,0,785.108
2738,0,785.365
2741,0,785.622
2744,0,785.879
2747,0,786.136
2750,0,786.393
2753,0,786.65
2756,0,786.907
2759,0,787.164
2762,0,787.421
2765,0,787.678
2768,0,787.935
2771,0,788.192
2774,0,788.449
2777,0,788.706
2780,0,788.963
2783,0,789.22
2786,0,789.477
2789,0,789.734
2792,0,789.991
2795,0,790.248
2798,0,790.505
2801,0,790.762
2804,0,791.019
2807,0,791.276
2810,0,791.533
2813,0,791.79
2816,0,792.047
2819,0,792.303
2822,0,792.56
2825,0,792.817
2828,0,793.074
2831,0,793.331
2834,0,793.588
2837,0,793.844
2840,0,794.101
2843,0,794.358
2846,0,794.615
2849,0,794.872
2852,0,795.128
2855,0,795.385
2858,0,795.642
2861,0,795.899
2864,0,796.155
2867,0,796.412
2870,0,796.669
2873,0,796.926
2876,0,797.182
2879,0,797.439
2882,0,797.696
2885,0,797.952
2888,0,798.209
2891,0,798.466
2894,0,798.723
2897,0,798.979
2900,0,799.236
2903,0,799.492
2906,0,799.749
2909,0,800.006
2912,0,800.262
2915,0,800.519
2918,0,800.776
2921,0,801.032
2924,0,801.289
2927,0,801.545
2930,0,801.802
2933,0,802.058
2936,0,802.315
2939,0,802.571
2942,0,802.828
2945,0,803.085
2948,0,803.341
2951,0,803.598
2954,0,803.854
2957,0,804.111
2960,0,804.367
2963,0,804.624
2966,0,804.88
2969,0,805.136
2972,0,805.393
2975,0,805.649
2978,0,805.906
2981,0,806.162
2984,0,806.419
2987,0,806.675
2990,0,806.931
2993,0,807.188
2996,0,807.444
2999,0,807.701
3002,0,807.957
3005,0,808.213
3008,0,808.47
3011,0,808.726
3014,0,808.982
3017,0,809.239
3020,0,809.495
3023,0,809.751
3026,0,810.008
3029,0,810.264
3032,0,810.52
3035,0,810.776
3038,0,811.033
3041,0,811.289
3044,0,811.545
3047,0,811.801
3050,0,812.058
3053,0,812.314
3056,0,812.57
3059,0,812.826
3062,0,813.082
3065,0,813.339
3068,0,813.595
3071,0,813.851
3074,0,814.107
3077,0,814.363
3080,0,814.619
3083,0,814.876
3086,0,815.132
3089,0,815.388
3092,0,815.644
3095,0,815.9
3098,0,816.156
3101,0,816.412
3104,0,816.668
3107,0,816.924
3110,0,817.18
3113,0,817.436
3116,0,817.692
3119,0,817.948
3122,0,818.204
3125,0,818.46
3128,0,818.717
3131,0,818.972
3134,0,819.228
3137,0,819.484
3140,0,819.74
3143,0,819.996
3146,0,820.252
3149,0,820.508
3152,0,820.764
3155,0,821.02
3158,0,821.276
3161,0,821.532
3164,0,821.788
3167,0,822.044
3170,0,822.3
3173,0,822.556
3176,0,822.811
3179,0,823.067
3182,0,823.323
3185,0,823.579
3188,0,823.835
3191,0,824.091
3194,0,824.346
3197,0,824.602
3200,0,824.858
3203,0,825.114
3206,0,825.37
3209,0,825.625
3212,0,825.881
3215,0,826.137
3218,0,826.393
3221,0,826.648
3224,0,826.904
3227,0,827.16
3230,0,827.416
3233,0,827.671
3236,0,827.927
3239,0,828.183
3242,0,828.438
3245,0,828.694
3248,0,828.95
3251,0,829.205
3254,0,829.461
3257,0,829.716
3260,0,829.972
3263,0,830.228
3266,0,830.483
3269,0,830.739
3272,0,830.995
3275,0,831.25
3278,0,831.506
3281,0,831.761
3284,0,832.017
3287,0,832.272
3290,0,832.528
3293,0,832.783
3296,0,833.039
3299,0,833.294
3302,0,833.55
3305,0,833.805
3308,0,834.061
3311,0,834.316
3314,0,834.572
3317,0,834.827
3320,0,835.083
3323,0,835.338
3326,0,835.594
3329,0,835.849
3332,0,836.104
3335,0,836.36
3338,0,836.615
3341,0,836.871
3344,0,837.126
3347,0,837.381
3350,0,837.637
3353,0,837.892
3356,0,838.147
3359,0,838.403
3362,0,838.658
3365,0,838.913
3368,0,839.169
3371,0,839.424
3374,0,839.679
3377,0,839.934
3380,0,840.19
3383,0,840.445
3386,0,840.7
3389,0,840.955
3392,0,841.211
3395,0,841.466
3398,0,841.721
3401,0,841.976
3404,0,842.231
3407,0,842.487
3410,0,842.742
3413,0,842.997
3416,0,843.252
3419,0,843.507
3422,0,843.762
3425,0,844.018
3428,0,844.273
3431,0,844.528
3434,0,844.783
3437,0,845.038
3440,0,845.293
3443,0,845.548
3445,0,845.718